Folder: mtibattery/data (part 2)

File: CuNP.txt
Cycle ID	Cap_Chg(mAh)	Cap_DChg(mAh)	RCap_Chg(mAh/g)	RCap_DChg(mAh/g)	Efficiency(%)	Engy_Chg(mWh)	Engy_DChg(mWh)	Mid-value Voltage(V)	CC_Chg_Cap(mAh)	CC_Chg_Rat(%)	Platform_Cap(mAh)	Platform_RCap(mAh/g)	Platform_Efficiency(%)	Platform_Time	Capacitance_Chg(F)	Capacitance_DChg(F)	rd(mO)	REngy_Chg(mWh/g)	REngy_DChg(mWh/g)	Energy Efficiency(%)
	Step ID	Step Type	Step Time(H)	Cap(mAh)	CmpCap(mAh/g)	Energy(mWh)	CmpEng(mWh/g)	Capacitance_Chg(F)	Start Vol(V)	End Vol(V)	Start Temperature(?)	End Temperature(?)
		Record ID	Time(H)	Vol(V)	Cur(mA)	Temperature(?)	Cap(mAh)	CmpCap(mAh/g)	Energy(mWh)	CmpEng(mWh/g)	Realtime
1	0.0000	0.4796	0.0000	102.2511	0.00	0.0000	1.0300	2.2	0.0000	0.00	0.4796	102.2511	100.00	17:23:25	0.0000	0.0000	0.0000	0.0000	219.6209	0.00%
		120	0.2	2.6007	0.0000	0.0	0.0000	0.0000	0.0000	0.0	2016-03-11 11:04:17
		240	0.0	2.3530	-0.0221	0.0	0.0004	0.0916	0.0010	0.2	2016-03-11 11:14:16
		361	0.2	2.3713	-0.0221	0.0	0.0041	0.8835	0.0099	2.1	2016-03-11 11:24:21
		482	0.4	2.3862	-0.0221	0.0	0.0079	1.6754	0.0187	4.0	2016-03-11 11:34:26
		603	0.5	2.3952	-0.0221	0.0	0.0116	2.4673	0.0276	5.9	2016-03-11 11:44:31
		724	0.7	2.4131	-0.0221	0.0	0.0153	3.2592	0.0366	7.8	2016-03-11 11:54:36
		845	0.9	2.4144	-0.0221	0.0	0.0190	4.0511	0.0456	9.7	2016-03-11 12:04:41
		966	1.0	2.4138	-0.0221	0.0	0.0227	4.8430	0.0546	11.6	2016-03-11 12:14:46
		1087	1.2	2.4197	-0.0221	0.0	0.0264	5.6350	0.0636	13.6	2016-03-11 12:24:51
		1208	1.4	2.4193	-0.0221	0.0	0.0301	6.4269	0.0726	15.5	2016-03-11 12:34:56
		1329	1.5	2.4181	-0.0221	0.0	0.0339	7.2188	0.0816	17.4	2016-03-11 12:45:01
		1450	1.7	2.4159	-0.0221	0.0	0.0376	8.0107	0.0906	19.3	2016-03-11 12:55:06
		1571	1.9	2.4153	-0.0221	0.0	0.0413	8.8026	0.0997	21.3	2016-03-11 13:05:11
		1692	2.0	2.4169	-0.0221	0.0	0.0450	9.5945	0.1087	23.2	2016-03-11 13:15:16
		1813	2.2	2.4147	-0.0221	0.0	0.0487	10.3864	0.1177	25.1	2016-03-11 13:25:21
		1934	2.4	2.4125	-0.0221	0.0	0.0524	11.1783	0.1267	27.0	2016-03-11 13:35:26
		2055	2.5	2.4035	-0.0221	0.0	0.0561	11.9702	0.1356	28.9	2016-03-11 13:45:31
		2176	2.7	2.3964	-0.0221	0.0	0.0599	12.7621	0.1446	30.8	2016-03-11 13:55:36
		2297	2.9	2.4048	-0.0221	0.0	0.0636	13.5540	0.1535	32.7	2016-03-11 14:05:41
		2418	3.0	2.4001	-0.0221	0.0	0.0673	14.3459	0.1625	34.6	2016-03-11 14:15:46
		2539	3.2	2.3961	-0.0221	0.0	0.0710	15.1378	0.1714	36.5	2016-03-11 14:25:51
		2660	3.4	2.3964	-0.0221	0.0	0.0747	15.9297	0.1803	38.4	2016-03-11 14:35:56
		2781	3.5	2.3893	-0.0221	0.0	0.0784	16.7216	0.1892	40.4	2016-03-11 14:46:01
		2902	3.7	2.3871	-0.0221	0.0	0.0821	17.5135	0.1981	42.2	2016-03-11 14:56:06
		3023	3.9	2.3871	-0.0221	0.0	0.0859	18.3054	0.2070	44.1	2016-03-11 15:06:11
		3144	4.1	2.3849	-0.0221	0.0	0.0896	19.0973	0.2159	46.0	2016-03-11 15:16:16
		3265	4.2	2.3890	-0.0221	0.0	0.0933	19.8892	0.2248	47.9	2016-03-11 15:26:21
		3386	4.4	2.3787	-0.0221	0.0	0.0970	20.6811	0.2337	49.8	2016-03-11 15:36:26
		3507	4.6	2.3790	-0.0221	0.0	0.1007	21.4730	0.2426	51.7	2016-03-11 15:46:31
		3628	4.7	2.3763	-0.0221	0.0	0.1044	22.2649	0.2515	53.6	2016-03-11 15:56:36
		3749	4.9	2.3732	-0.0221	0.0	0.1081	23.0568	0.2603	55.5	2016-03-11 16:06:41
		3870	5.1	2.3738	-0.0221	0.0	0.1119	23.8487	0.2692	57.4	2016-03-11 16:16:47
		3991	5.2	2.3713	-0.0221	0.0	0.1156	24.6406	0.2780	59.3	2016-03-11 16:26:52
		4112	5.4	2.3688	-0.0221	0.0	0.1193	25.4325	0.2868	61.2	2016-03-11 16:36:57
		4233	5.6	2.3254	-0.0301	0.0	0.1236	26.3623	0.2971	63.3	2016-03-11 16:47:02
		4354	5.7	2.3335	-0.0301	0.0	0.1287	27.4408	0.3089	65.9	2016-03-11 16:57:07
		4475	5.9	2.3338	-0.0301	0.0	0.1338	28.5193	0.3207	68.4	2016-03-11 17:07:12
		4596	6.1	2.3347	-0.0301	0.0	0.1388	29.5978	0.3325	70.9	2016-03-11 17:17:17
		4717	6.2	2.3294	-0.0301	0.0	0.1439	30.6763	0.3443	73.4	2016-03-11 17:27:22
		4838	6.4	2.3288	-0.0301	0.0	0.1489	31.7547	0.3561	75.9	2016-03-11 17:37:27
		4959	6.6	2.3235	-0.0301	0.0	0.1540	32.8332	0.3679	78.4	2016-03-11 17:47:32
		5080	6.7	2.3142	-0.0301	0.0	0.1590	33.9115	0.3796	80.9	2016-03-11 17:57:37
		5201	6.9	2.3028	-0.0301	0.0	0.1641	34.9899	0.3913	83.4	2016-03-11 18:07:42
		5322	7.1	2.2891	-0.0301	0.0	0.1692	36.0684	0.4029	85.9	2016-03-11 18:17:47
		5443	7.2	2.2823	-0.0301	0.0	0.1742	37.1470	0.4145	88.4	2016-03-11 18:27:52
		5564	7.4	2.2712	-0.0301	0.0	0.1793	38.2255	0.4260	90.8	2016-03-11 18:37:57
		5685	7.6	2.2603	-0.0301	0.0	0.1843	39.3040	0.4375	93.3	2016-03-11 18:48:02
		5806	7.8	2.2470	-0.0301	0.0	0.1894	40.3825	0.4489	95.7	2016-03-11 18:58:07
		5927	7.9	2.2343	-0.0301	0.0	0.1945	41.4609	0.4602	98.1	2016-03-11 19:08:12
		6048	8.1	2.2265	-0.0301	0.0	0.1995	42.5394	0.4715	100.5	2016-03-11 19:18:17
		6169	8.3	2.2194	-0.0301	0.0	0.2046	43.6179	0.4827	102.9	2016-03-11 19:28:22
		6290	8.4	2.2129	-0.0301	0.0	0.2096	44.6962	0.4939	105.3	2016-03-11 19:38:27
		6411	8.6	2.2085	-0.0301	0.0	0.2147	45.7746	0.5051	107.7	2016-03-11 19:48:32
		6532	8.8	2.2017	-0.0301	0.0	0.2197	46.8531	0.5163	110.1	2016-03-11 19:58:37
		6653	8.9	2.1961	-0.0301	0.0	0.2248	47.9316	0.5274	112.5	2016-03-11 20:08:42
		6774	9.1	2.1868	-0.0301	0.0	0.2299	49.0100	0.5385	114.8	2016-03-11 20:18:47
		6895	9.3	2.1778	-0.0301	0.0	0.2349	50.0886	0.5495	117.2	2016-03-11 20:28:52
		7016	9.4	2.1698	-0.0301	0.0	0.2400	51.1671	0.5605	119.5	2016-03-11 20:38:57
		7137	9.6	2.1620	-0.0301	0.0	0.2450	52.2456	0.5715	121.9	2016-03-11 20:49:02
		7258	9.8	2.1537	-0.0301	0.0	0.2501	53.3241	0.5824	124.2	2016-03-11 20:59:07
		7379	9.9	2.1459	-0.0301	0.0	0.2551	54.4026	0.5933	126.5	2016-03-11 21:09:12
		7500	10.1	2.1375	-0.0301	0.0	0.2602	55.4811	0.6041	128.8	2016-03-11 21:19:17
		7621	10.3	2.1267	-0.0301	0.0	0.2653	56.5596	0.6149	131.1	2016-03-11 21:29:22
		7742	10.4	2.1171	-0.0301	0.0	0.2703	57.6381	0.6257	133.4	2016-03-11 21:39:27
		7863	10.6	2.1022	-0.0301	0.0	0.2754	58.7166	0.6363	135.7	2016-03-11 21:49:32
		7984	10.8	2.0907	-0.0301	0.0	0.2804	59.7951	0.6469	137.9	2016-03-11 21:59:37
		8105	10.9	2.0786	-0.0301	0.0	0.2855	60.8735	0.6575	140.2	2016-03-11 22:09:42
		8226	11.1	2.0669	-0.0301	0.0	0.2906	61.9519	0.6680	142.4	2016-03-11 22:19:47
		8347	11.3	2.0566	-0.0301	0.0	0.2956	63.0304	0.6784	144.6	2016-03-11 22:29:52
		8468	11.4	2.0445	-0.0301	0.0	0.3007	64.1089	0.6888	146.9	2016-03-11 22:39:57
		8589	11.6	2.0346	-0.0301	0.0	0.3057	65.1874	0.6991	149.1	2016-03-11 22:50:02
		8710	11.8	2.0234	-0.0301	0.0	0.3108	66.2659	0.7094	151.3	2016-03-11 23:00:07
		8831	12.0	2.0120	-0.0301	0.0	0.3158	67.3445	0.7196	153.4	2016-03-11 23:10:12
		8952	12.1	2.0042	-0.0301	0.0	0.3209	68.4229	0.7298	155.6	2016-03-11 23:20:17
		9073	12.3	1.9946	-0.0301	0.0	0.3260	69.5014	0.7399	157.8	2016-03-11 23:30:22
		9194	12.5	1.9862	-0.0301	0.0	0.3310	70.5799	0.7499	159.9	2016-03-11 23:40:27
		9315	12.6	1.9766	-0.0301	0.0	0.3361	71.6584	0.7600	162.0	2016-03-11 23:50:32
		9436	12.8	1.9667	-0.0301	0.0	0.3411	72.7369	0.7699	164.2	2016-03-12 00:00:37
		9557	13.0	1.9577	-0.0301	0.0	0.3462	73.8154	0.7799	166.3	2016-03-12 00:10:42
		9678	13.1	1.9475	-0.0301	0.0	0.3513	74.8939	0.7897	168.4	2016-03-12 00:20:47
		9799	13.3	1.9435	-0.0301	0.0	0.3563	75.9724	0.7996	170.5	2016-03-12 00:30:52
		9920	13.5	1.9351	-0.0301	0.0	0.3614	77.0510	0.8094	172.6	2016-03-12 00:40:57
		10041	13.6	1.9277	-0.0301	0.0	0.3664	78.1295	0.8192	174.7	2016-03-12 00:51:02
		10162	13.8	1.9218	-0.0301	0.0	0.3715	79.2080	0.8289	176.7	2016-03-12 01:01:07
		10283	14.0	1.9184	-0.0301	0.0	0.3765	80.2865	0.8386	178.8	2016-03-12 01:11:12
		10404	14.1	1.9109	-0.0301	0.0	0.3816	81.3650	0.8483	180.9	2016-03-12 01:21:17
		10525	14.3	1.9069	-0.0301	0.0	0.3867	82.4435	0.8580	182.9	2016-03-12 01:31:22
		10646	14.5	1.9013	-0.0301	0.0	0.3917	83.5221	0.8676	185.0	2016-03-12 01:41:27
		10767	14.6	1.8936	-0.0301	0.0	0.3968	84.6006	0.8772	187.0	2016-03-12 01:51:32
		10888	14.8	1.8861	-0.0301	0.0	0.4018	85.6791	0.8868	189.1	2016-03-12 02:01:37
		11009	15.0	1.8855	-0.0301	0.0	0.4069	86.7576	0.8963	191.1	2016-03-12 02:11:42
		11130	15.1	1.8774	-0.0301	0.0	0.4120	87.8362	0.9059	193.1	2016-03-12 02:21:47
		11251	15.3	1.8675	-0.0301	0.0	0.4170	88.9147	0.9153	195.2	2016-03-12 02:31:52
		11372	15.5	1.8588	-0.0301	0.0	0.4221	89.9933	0.9247	197.2	2016-03-12 02:41:57
		11493	15.6	1.8598	-0.0301	0.0	0.4271	91.0718	0.9341	199.2	2016-03-12 02:52:02
		11614	15.8	1.8529	-0.0301	0.0	0.4322	92.1503	0.9435	201.2	2016-03-12 03:02:07
		11735	16.0	1.8464	-0.0301	0.0	0.4372	93.2289	0.9529	203.2	2016-03-12 03:12:12
		11856	16.2	1.8399	-0.0301	0.0	0.4423	94.3074	0.9622	205.2	2016-03-12 03:22:17
		11977	16.3	1.8334	-0.0301	0.0	0.4474	95.3858	0.9715	207.1	2016-03-12 03:32:22
		12098	16.5	1.8281	-0.0301	0.0	0.4524	96.4644	0.9808	209.1	2016-03-12 03:42:27
		12219	16.7	1.8219	-0.0301	0.0	0.4575	97.5429	0.9900	211.1	2016-03-12 03:52:32
		12340	16.8	1.8182	-0.0301	0.0	0.4625	98.6215	0.9992	213.1	2016-03-12 04:02:37
		12461	17.0	1.8123	-0.0301	0.0	0.4676	99.7001	1.0084	215.0	2016-03-12 04:12:42
		12582	17.2	1.8061	-0.0301	0.0	0.4727	100.7786	1.0176	217.0	2016-03-12 04:22:47
		12703	17.3	1.8024	-0.0301	0.0	0.4777	101.8571	1.0267	218.9	2016-03-12 04:32:52
		12822	0.1	2.2026	0.0301	0.0	0.0031	0.6507	0.0066	1.4	2016-03-12 04:42:38
		12943	0.3	2.2606	0.0301	0.0	0.0081	1.7293	0.0179	3.8	2016-03-12 04:52:43
		13064	0.4	2.3031	0.0301	0.0	0.0132	2.8078	0.0295	6.3	2016-03-12 05:02:48
		13185	0.6	2.3372	0.0301	0.0	0.0182	3.8864	0.0412	8.8	2016-03-12 05:12:53
		13306	0.8	2.3663	0.0301	0.0	0.0233	4.9650	0.0531	11.3	2016-03-12 05:22:58
		13427	0.9	2.3856	0.0301	0.0	0.0283	6.0435	0.0651	13.9	2016-03-12 05:33:03
		13548	1.1	2.4215	0.0301	0.0	0.0334	7.1221	0.0773	16.5	2016-03-12 05:43:08
		13669	1.3	2.4671	0.0301	0.0	0.0385	8.2007	0.0897	19.1	2016-03-12 05:53:13
		13790	1.4	2.5244	0.0301	0.0	0.0435	9.2792	0.1023	21.8	2016-03-12 06:03:18
		13911	1.6	2.5818	0.0301	0.0	0.0486	10.3578	0.1152	24.6	2016-03-12 06:13:23
		14032	1.8	2.6571	0.0301	0.0	0.0536	11.4364	0.1285	27.4	2016-03-12 06:23:28
		14153	2.0	2.7464	0.0301	0.0	0.0587	12.5149	0.1421	30.3	2016-03-12 06:33:33
		14274	2.1	2.8273	0.0301	0.0	0.0638	13.5935	0.1563	33.3	2016-03-12 06:43:38
		14395	2.3	2.8797	0.0301	0.0	0.0688	14.6721	0.1707	36.4	2016-03-12 06:53:43
		14516	2.5	2.8986	0.0301	0.0	0.0739	15.7506	0.1854	39.5	2016-03-12 07:03:48
		14637	2.6	2.9179	0.0301	0.0	0.0789	16.8292	0.2001	42.7	2016-03-12 07:13:53
		14758	2.8	2.9454	0.0301	0.0	0.0840	17.9078	0.2149	45.8	2016-03-12 07:23:58
		14879	3.0	2.9752	0.0301	0.0	0.0890	18.9863	0.2299	49.0	2016-03-12 07:34:03
		15000	3.1	2.9938	0.0301	0.0	0.0941	20.0649	0.2450	52.2	2016-03-12 07:44:08
		15121	3.3	3.0140	0.0301	0.0	0.0992	21.1434	0.2602	55.5	2016-03-12 07:54:13
		15242	3.5	3.0257	0.0301	0.0	0.1042	22.2220	0.2755	58.7	2016-03-12 08:04:18
		15363	3.6	3.0403	0.0301	0.0	0.1093	23.3006	0.2908	62.0	2016-03-12 08:14:23
		15482	3.8	3.0546	0.0301	0.0	0.1143	24.3613	0.3060	65.2	2016-03-12 08:24:18